'attitude_pitch_fft','attitude_pitch_fft_stDev','attitude_pitch_mean','attitude_pitch_stDev','attitude_roll_fft','attitude_roll_fft_stDev','attitude_roll_mean','attitude_roll_stDev','attitude_yaw_fft','attitude_yaw_fft_stDev','attitude_yaw_mean','attitude_yaw_stDev','gravity_x_fft','gravity_x_fft_stDev','gravity_x_mean','gravity_x_stDev','gravity_y_fft','gravity_y_fft_stDev','gravity_y_mean','gravity_y_stDev','gravity_z_fft','gravity_z_fft_stDev','gravity_z_mean','gravity_z_stDev','magnetic_field_x_fft','magnetic_field_x_fft_stDev','magnetic_field_x_mean','magnetic_field_x_stDev','magnetic_field_y_fft','magnetic_field_y_fft_stDev','magnetic_field_y_mean','magnetic_field_y_stDev','magnetic_field_z_fft','magnetic_field_z_fft_stDev','magnetic_field_z_mean','magnetic_field_z_stDev','rotation_rate_x_fft','rotation_rate_x_fft_stDev','rotation_rate_x_mean','rotation_rate_x_stDev','rotation_rate_y_fft','rotation_rate_y_fft_stDev','rotation_rate_y_mean','rotation_rate_y_stDev','rotation_rate_z_fft','rotation_rate_z_fft_stDev','rotation_rate_z_mean','rotation_rate_z_stDev','user_acc_x_fft','user_acc_x_fft_stDev','user_acc_x_mean','user_acc_x_stDev','user_acc_y_fft','user_acc_y_fft_stDev','user_acc_y_mean','user_acc_y_stDev','user_acc_z_fft','user_acc_z_fft_stDev','user_acc_z_mean','user_acc_z_stDev'
1213.427964,39.327648130951431,1.2759494889589904,0.0050233036899793625,2534.181688999999,82.134227846531132,2.6647546677181913,0.010613819997980257,2114.1399279999996,68.520918491886604,-2.2230703764458459,0.011012172683182926,126.78819899999999,4.1092379711549913,0.1333209242902208,0.00076916094407170413,909.949696999999,29.491638568069689,-0.95683459200841225,0.0014514717537898202,245.53201599999994,7.9597380751211873,0.25818298212407992,0.0056531005657993677,18303.253954000003,593.26516747792107,19.2463238212408,0.28229261353776269,26394.258499999993,855.46223685511529,-27.754215036803366,0.22793830457984382,27588.65436199999,894.20598325488845,29.010151800210306,0.27120162938938902,5.030782946549859,0.43947714050107323,0.00047193270241850693,0.014258018616492143,0.6709724203393522,0.12599293569482381,-0.00041546582544689807,0.0040897870541002166,0.8358495748901528,0.14475245764753014,0.00011991692954784437,0.0046941323491675197,0.70639,0.071212097511588593,0.00074278654048370147,0.0021865490702621488,5.729772000000003,0.1981810965228521,-0.0060249968454258668,0.0022394819747515622,1.0310869999999994,0.092335695816948282,0.0010842134595162986,0.0027910136401500052
1281.833604,40.515138373215919,1.281833604,0.0048552208297032171,2653.8577880000003,83.881144743944887,2.6538577880000003,0.011140592740920739,2215.350117,70.021669418761476,-2.2153501169999998,0.01231895613797334,133.486011,4.2192147421589006,0.13348601099999999,0.0010372492539785217,958.52866,30.296204116835028,-0.95852865999999992,0.001376118723221219,251.735504,7.9585320281764256,0.251735504,0.005526970753675471,19135.483346999998,604.89188633686467,19.135483347000001,0.31376895836209262,27875.249777,881.08054415324636,-27.875249777000001,0.23430464360020975,29060.748987,918.58704891788534,29.060748987,0.32994521924979137,5.8665124064997585,0.51181371581562751,0.0018048269999999995,0.016096200844704658,0.7725559166367909,0.15965082030481395,-0.00028210099999999999,0.0050414243101329012,0.9375997129783823,0.1747577253084967,0.00028442599999999995,0.0055190352459939954,0.888644,0.082082546378630328,0.00088864399999999996,0.0024389673760146936,6.0663219999999995,0.20202666459158306,-0.0060663220000000007,0.0020115523265170111,1.02522,0.094706997904061965,0.0010252200000000001,0.0028147112639842829
1284.903094,40.59253497114355,1.2836194745254745,0.0073389372177526052,2649.028537,83.688475242575976,2.6463821548451549,0.023284573476081448,2213.153242,69.919877874931416,-2.2109422997002999,0.024928217736464295,134.562526,4.2520405382493713,0.13442809790209789,0.0029008283522601467,959.9805130000001,30.327067211121378,-0.95902149150849147,0.002076018068119509,249.467303,7.8860065729544644,0.24921808491508493,0.0091892082706368713,19059.566822,602.21321357692295,19.040526295704296,0.32381982306944357,28029.297579000002,885.51792818284025,-28.001296282717284,0.25044417162624771,29202.527039999997,922.58134218897203,29.173353686313686,0.36611861901086795,12.375880855302222,0.76214227980279325,-0.0012051848151848155,0.024059502182496206,2.0255546378011777,0.26478172274913558,-9.5574425574425692e-05,0.0083684358919351148,2.7674907971411082,0.33222582901544551,-0.00019492307692307696,0.010499141940348903,0.8695539999999999,0.12580170562436749,0.0008686853146853146,0.0038805719234953889,5.942772,0.20476529646646668,-0.0059368351648351643,0.0025775711564834563,1.410628,0.13651783298529171,0.0014092187812187811,0.0040803321392651601
1288.860841,40.737400658927761,1.2888608410000002,0.0053140128511059322,2628.310332,83.073779636797383,2.6283103319999999,0.013862321253735821,2193.363632,69.326973123826249,-2.1933636320000001,0.015233803882240837,136.53907400000003,4.3157332980969754,0.13653907400000001,0.0010158861897496194,960.505198,30.358708302342947,-0.96050519800000012,0.0014775233388329265,242.371158,7.6631124513633502,0.242371158,0.0063141858986757744,19064.168932,602.61437688990736,19.064168932000001,0.25848405954793313,28157.134765999996,889.98402674066801,-28.157134766000002,0.20381594081113305,29089.147885000002,919.44719619899115,29.089147884999999,0.27909822114334182,10.1587494864158,0.56756120130696031,8.0000999999999318e-05,0.017958445200879695,1.8595665984255552,0.16362941922832824,-2.752400000000002e-05,0.005178659912701741,1.7674625438439722,0.18139502351222317,0.00025431800000000007,0.0057305861423484431,1.043375,0.083524363990395034,0.001043375,0.0024286515218069058,6.115886,0.20643176959470169,-0.0061158860000000001,0.002287486707503237,1.094896,0.10225993810872368,0.0010948960000000002,0.0030427810823626467
1289.138332,40.745900657071587,1.2891383320000001,0.0043936088325858052,2634.8926989999995,83.282101656599096,2.6348926989999999,0.011494546358965158,2200.64124,69.557201763834968,-2.2006412399999999,0.013320076282003795,134.835362,4.2617863016447695,0.13483536200000001,0.00092350853648247332,960.5866369999999,30.36122633478913,-0.96058663700000002,0.0012208358559736834,243.029207,7.6832995195017624,0.243029207,0.0052131845883443455,18924.214030000003,598.18530786633096,18.924214030000002,0.23156296352070882,28291.752697,894.23689797778763,-28.291752697,0.19755505386062694,29386.427112999998,928.86346207428505,29.386427113,0.29193912213564355,9.963330471037494,0.5462523316069231,0.00067858299999999975,0.017264741435049382,2.6264796029763424,0.18351265628015959,0.00039847499999999991,0.0057932232317920388,1.8834730547504002,0.17219238339427212,-0.0001115299999999999,0.0054443702334705342,0.7968189999999999,0.078787415359307209,0.00079681899999999993,0.0023644519060955754,5.945044,0.20626178168773776,-0.0059450439999999992,0.0026998527826650105,1.328109,0.1125813355889865,0.0013281090000000001,0.0033058346424343433
1284.4227460000002,40.596867702244737,1.2844227459999999,0.0047122377382178022,2654.575758,83.905021757576407,2.654575758,0.014717588216193445,2215.858406,70.038826907027087,-2.2158584059999997,0.015274929199284819,132.132381,4.1768072539626484,0.13213238100000002,0.0022803070902488111,959.2639179999999,30.319416654849018,-0.95926391799999999,0.001330037055602587,249.62848499999998,7.8922293250418791,0.24962848500000001,0.0056963985162359386,18674.015158000002,590.2909855052103,18.674015158000003,0.28014284105346154,28301.971931,894.56502962428397,-28.301971931000001,0.20837724725651369,29845.806773000004,943.40278331014213,29.845806773000003,0.33145174293764917,9.28078423536193,0.52884633387308266,1.0463999999999807e-05,0.016724631503405508,2.0912560076093687,0.20064973552187901,0.00025056700000000004,0.0063401827216185971,1.5219062230407883,0.20045748337490421,0.00034169199999999994,0.0063298903765496599,0.9195998979411895,0.11073391806488198,0.00069355999999999997,0.0034370556056601701,5.904593,0.19945721676339515,-0.0059045930000000005,0.0022389068643762296,1.7352040000000002,0.12034709869789133,0.001735204,0.0033955486644110995
1284.559565,40.580964894194018,1.2832762887112887,0.0050622920740036222,2671.894759,84.409419848323282,2.6692255334665331,0.011491842934233991,2233.302914,70.554253098626134,-2.2310718421578422,0.013019601575696203,129.09573,4.0783550920608915,0.12896676323676323,0.0009027827336756558,959.896737,30.324278107289267,-0.95893779920079913,0.0014316159563210289,252.779133,7.9878154820200997,0.25252660639360641,0.0057738853027601489,18565.323932,586.58066357928021,18.546777154845156,0.29032333836192259,28306.809559000005,894.26255142155662,-28.278531027972026,0.21451855433431755,30209.174013999997,954.39284470934376,30.178995018981023,0.3108380691848508,8.103865778005918,0.55637898813758191,-0.00083169830169830194,0.017580042990372458,1.49341731984307,0.14371742818113598,-0.00017667432567432571,0.004539148194265161,1.2692938187164085,0.15183286203256524,-0.00028505794205794204,0.0047905059975879832,0.5306109999999999,0.07175007776302407,0.00053008091908091906,0.0022054969371336358,5.8565629999999995,0.19883951225800164,-0.0058507122877122873,0.0023057355067118927,1.844833,0.10608779545263441,0.0018429900099900102,0.0028012263412450656
1285.847645,40.641935193395817,1.285847645,0.0054265329940004041,2668.870661,84.356209627421023,2.6688706610000001,0.012534410377440139,2230.441574,70.499289283636472,-2.2304415739999999,0.013876087490086097,127.922774,4.0433335463058198,0.12792277399999999,0.00093968958860040567,959.6619559999999,30.331990563610262,-0.95966195599999993,0.0015250320167340761,250.285511,7.9133946143290492,0.25028551099999996,0.0062178180553855867,18463.783735,583.62906865960872,18.463783735,0.2389985292487482,28338.947638999998,895.74977981111988,-28.338947638999997,0.22163133043454081,30293.371263999998,957.56211549335967,30.293371263999997,0.34479611235248336,8.36344436580785,0.5618311112620944,0.001752637,0.017688864524135827,1.319920343943455,0.14908912751438314,-0.00032382400000000001,0.0047119837182469128,1.2679580652150577,0.1650477295693582,0.00015756800000000005,0.0052168921569624186,0.6637820000000001,0.082179288351749549,0.00066378200000000002,0.0025125972089604814,5.885127000000001,0.20206319159114564,-0.0058851269999999995,0.0025032174973164036,1.513928,0.10870890796986232,0.0015139279999999999,0.003086377663672416
1279.2121550000002,40.432729443761879,1.279212155,0.0071710941441996811,2703.192276,85.441754286143393,2.7031922759999998,0.017057913851342549,2263.636779,71.549116710009571,-2.263636779,0.017766944662382409,121.90992,3.8536148861613042,0.12190992,0.0020533561536177788,957.76505,30.272136318293462,-0.95776505000000001,0.0020566293208791908,260.285968,8.2308827051400169,0.26028596800000003,0.0081770814962904698,18247.304571,576.78433825883496,18.247304571000001,0.23081274954788977,28412.331262,898.05490262567673,-28.412331261999999,0.21165839787624161,30614.638558000002,967.72877011273113,30.614638557999999,0.40678572179307942,10.971398307218715,0.8906365661727571,0.00080655100000000051,0.028153806138023312,1.4427575357758193,0.21367164466536029,9.8252000000000007e-05,0.0067580425244663858,1.4920576801259366,0.25950352648663561,1.5227999999999853e-05,0.0082200171586205347,0.7054262003596851,0.11694472296773377,0.00044005700000000005,0.0036725447030296313,5.718263,0.2006123168626493,-0.0057182630000000003,0.0027489164803302046,1.7716020000000001,0.14392810904753803,0.0017716020000000002,0.0042042750299660465
1277.1241289999998,40.366777250936991,1.2771241289999997,0.0061877633274357718,2701.616606,85.390609754793346,2.7016166059999995,0.01593137577802884,2264.848684,71.586030698987145,-2.2648486839999995,0.01605246922128007,123.1974,3.894681891722096,0.12319739999999998,0.0023373278221079726,957.169028,30.253342247927076,-0.95716902799999992,0.0017907554364613831,261.897452,8.2805044653251638,0.26189745200000003,0.0071362426162299162,18263.012945,577.31399935749482,18.263012945000003,0.26841169093868472,28527.993505000006,901.72484607088916,-28.527993504999998,0.24453902304903813,30724.325771,971.19317895697554,30.724325771,0.39304631378681892,10.203631437083114,0.60837737490639798,-0.0014398379999999995,0.019193267072902309,1.0464077626286896,0.15592413994632132,-0.00042761599999999997,0.0049126071602097398,1.1876307624017808,0.20448889411163629,-0.00021602999999999998,0.0064698446886382061,0.732085,0.10008233830202008,0.00073208500000000005,0.0030829443384166053,5.647256,0.19572992892759145,-0.0056472560000000007,0.0025503900471229883,1.9307480000000001,0.12630140487342173,0.0019307479999999999,0.0034963456056997574
1278.6240540000001,40.413979772855605,1.2786240539999998,0.0058682152130851532,2693.538442,85.135145714981249,2.6935384419999999,0.012616894227924563,2256.8978420000003,71.334618506637867,-2.2568978420000003,0.013911087894447222,124.705449,3.9417441974190819,0.12470544900000001,0.001080900910999246,957.603965,30.267036529342942,-0.957603965,0.0016880040461370355,259.60659,8.2078712710422046,0.25960658999999997,0.0066027381023254289,18325.415659,579.26860072895386,18.325415658999997,0.25107085137889795,28716.555737,907.66596405705718,-28.716555737000004,0.20288280040886136,30786.640844,973.1127943825511,30.786640844000001,0.33773031747308324,11.234459297423083,0.64541471218124558,0.00030536699999999996,0.020408798921649235,1.3243811635806564,0.1540211030930502,3.4121999999999928e-05,0.0048751777960517502,1.7783650400806603,0.17438246066046892,1.7105999999999954e-05,0.0055173927381294875,0.781175,0.080420986533367017,0.00078117499999999995,0.0024203189662470111,5.772914,0.19917559096686521,-0.0057729140000000005,0.0025244700454954898,1.576898,0.099296552291607776,0.001576898,0.0027197359466676176
1280.822537,40.4635166977762,1.2795429940059939,0.006749067666396485,2690.716665,85.003448232089895,2.6880286363636361,0.014256628245090686,2252.900248,71.172814505792516,-2.2506495984015982,0.015931848665382838,125.85112900000001,3.9760014621437203,0.12572540359640361,0.0010718274780972209,958.8207709999999,30.290419319080137,-0.95786290809190811,0.0019382782099392577,258.38491899999997,8.1658993335902679,0.25812679220779217,0.0075781055597625669,18389.005628000003,580.96576588193409,18.370634993006991,0.1644154109031708,28854.036357000005,911.55585886583003,-28.825211145854151,0.20776595680576082,30783.152439,972.53566315734497,30.752400038961039,0.33942800985934035,11.437017429320461,0.69325010009519605,-0.0007573576423576424,0.021900574412155989,1.5728446668369618,0.13962459503969915,0.00024890709290709302,0.0044075488450541428,1.5578518687803178,0.15720919723413126,-0.00015489410589410594,0.0049670719458308806,0.8893620000000001,0.083280019326366625,0.00088847352647352643,0.0024777638632013876,5.848095000000001,0.19501550765516065,-0.0058422527472527467,0.0019683819597617301,1.4080469999999998,0.096294323389283953,0.0014066403596403596,0.0027026997311378818
1281.418251,40.502416251186759,1.2814182510000001,0.0069771647437909187,2678.968581,84.675173848885336,2.6789685809999999,0.015249215543805492,2242.109074,70.868000157455313,-2.242109074,0.016776656384051146,127.24583,4.0220187355268493,0.12724582999999998,0.0010456975801349069,958.3981970000001,30.292141549935046,-0.95839819699999995,0.0019869432287287435,255.370044,8.0752417269697272,0.25537004400000002,0.0079055368920816493,18442.441251,582.93553216241662,18.442441250999998,0.17368046335269838,28733.36989,908.19784438365548,-28.733369890000002,0.19144874281287383,30647.764809,968.75139945151955,30.647764809000002,0.36709128258827456,11.216745122793665,0.65784665848509094,-0.0009429079999999999,0.020792289182952801,1.474299364880393,0.12697820644504315,2.4572000000000011e-05,0.0040198056088343375,1.4934373543988813,0.15332319301397293,1.0781999999999986e-05,0.004850580920310061,0.8559809999999999,0.066400147010379412,0.00085598100000000012,0.0019183048909490379,5.890076,0.19581534710027193,-0.0058900759999999993,0.0019190987463452733,1.420711,0.091693598767852921,0.0014207110000000001,0.002528097856784622
1283.2441410000001,40.559868075946206,1.2832441410000002,0.0070747191416422328,2680.202492,84.714670429169388,2.6802024920000003,0.014027307264544254,2245.569681,70.977791656426106,-2.2455696810000001,0.01508102437081908,126.159472,3.987548699361426,0.12615947199999999,0.00070900143103945859,958.916972,30.308461993406855,-0.95891697200000003,0.0020047746165631685,253.96104200000002,8.0309778632256865,0.25396104200000003,0.0078303387318963413,18461.463633,583.53952308045302,18.461463633000001,0.17284065003511273,28760.154336,909.03727691325491,-28.760154335999999,0.18728909479708927,30753.337938000004,972.08629383921277,30.753337938000001,0.3265670284921125,9.08486617562946,0.63296198517130542,0.0025384569999999996,0.019855402034613931,0.7269069470972521,0.13698435233996617,-0.00032991799999999995,0.0043208162996447794,0.6797973392368498,0.12548248526786515,0.00024098700000000007,0.0039608964862554788,0.760079,0.063689622451385278,0.00076007899999999998,0.001865113477180142,5.81645,0.19318957295620279,-0.0058164499999999999,0.0018690488429947464,1.343213,0.090900191897487201,0.001343213,0.0025415612996012903
1283.288528,40.56193598953908,1.2832885280000002,0.0074999730262992285,2681.4824609999996,84.754064906607638,2.6814824609999994,0.014499887792961682,2247.051157,71.023411639448611,-2.247051157,0.015555330894659582,125.805996,3.9764159613230854,0.125805996,0.00068645040751972751,958.9265669999999,30.308942404808501,-0.95892656700000001,0.0021265987147346347,254.085663,8.0346813961747117,0.25408566300000002,0.0082553389701108572,18503.469629,584.85811117892183,18.503469628999998,0.15283201125370083,28733.772825,908.21083715687951,-28.733772824999999,0.20348158682519746,30616.827572,967.75987113411702,30.616827572000002,0.33858731649912821,8.479637519636865,0.69573008216477161,-0.0023729440000000001,0.021872776379117123,0.8922450635424543,0.12517737407774615,0.00027297799999999995,0.0039506558384040493,0.6112267925404693,0.1385021474129553,-0.00023311999999999999,0.0043737343974685977,0.7834720000000001,0.069949271132728752,0.0007834719999999999,0.0020688220641746839,5.80589,0.19404793350613142,-0.0058058900000000002,0.0019985661625025078,1.6546090000000002,0.096890963634386457,0.0016546089999999998,0.0025789085854521871
1282.4323669999999,40.513961296739808,1.2811512157842158,0.0073104485483048943,2689.009784,84.950802456801156,2.6863234605394606,0.013780760282971137,2254.416981,71.222009837250667,-2.2521648161838166,0.01481797075705108,125.60996300000002,3.9681881384195994,0.12548447852147854,0.00081865291375223036,959.2780210000001,30.304728586943661,-0.95831970129870125,0.0020879612777517991,256.787325,8.1164601767204534,0.25653079420579422,0.0079959631209364033,18590.382947,587.31577802579807,18.571811135864134,0.16779948687506169,28803.863198,909.97212471432852,-28.77508810989011,0.21976080404733783,30784.2359,972.59057293747787,30.753482417582418,0.35777651832961788,13.328825020015868,0.74694832000212752,4.0052947052946098e-05,0.023608904327576175,0.7954881971584237,0.12733537353382995,-0.00030283316683316682,0.0040191792989243413,1.0475875435171016,0.16122549611026166,0.00045653146853146849,0.0050757990950003069,0.748612,0.079835641595718376,0.00074786413586413591,0.0024102063805254833,5.751398999999999,0.19355821101932102,-0.0057456533466533457,0.0021052378996439312,1.6155529999999998,0.10346811537377104,0.0016139390609390609,0.0028449197427941227
1278.649344,40.414707365805342,1.2786493440000002,0.0081957152662634637,2700.943827,85.371573837480284,2.7009438270000001,0.019628158850006055,2267.06585,71.65864477382803,-2.2670658499999998,0.020408979314299375,122.686283,3.8784888591323816,0.12268628300000001,0.0024698741625659801,957.595566,30.266681019055568,-0.95759556599999995,0.002373866280910531,260.497933,8.2392547076157321,0.26049793300000001,0.009374056704357564,18406.208488,581.79044984078655,18.406208487999997,0.18506008749066841,28685.25755,906.67550958121797,-28.685257550000003,0.23146624354042958,30820.105822999998,974.22189809874351,30.820105822999999,0.37213084963507076,11.354027138571059,0.80704510779571659,0.0012015249999999995,0.025501938359806593,0.9083587593016459,0.1679747325195072,0.00045734300000000003,0.0052927850409166437,1.140241157974985,0.21099198362023139,0.00015477500000000004,0.0066704381814371837,0.61679,0.10189006852976397,0.00061678999999999998,0.0031630281671050607,5.657795,0.19585428184494716,-0.0056577950000000002,0.0025387396816087702,1.602648,0.12602336728162755,0.0016026479999999999,0.0036488636502472931
1274.394399,40.280144877017555,1.2743943989999997,0.0067195976874958084,2704.230106,85.473591202541783,2.7042301059999998,0.01513560199036576,2269.615405,71.737173296045071,-2.2696154050000001,0.015591444914214173,123.618583,3.9079259416430863,0.123618583,0.00216261728355042,956.372003,30.228032407900489,-0.95637200299999992,0.0019618680065159838,264.587095,8.3662504100593349,0.26458709499999999,0.0074936624450247956,18378.356572,580.92213840680608,18.378356571999998,0.17355738747730345,28565.650509000003,902.89865125261747,-28.565650509000001,0.21251699344345612,31077.480165,982.35028091327456,31.077480164999997,0.37226479678642421,12.664657100052414,0.79038294365452988,8.9855999999999717e-05,0.024997141745072855,1.0503067206054122,0.21071568188912754,-0.00048475399999999989,0.0066463580882678902,1.7564152654982716,0.30691956333704112,-0.00039399499999999985,0.0097177307441076478,0.8064199196762608,0.12194273335053629,0.00062474300000000009,0.0038064409015445121,5.639766,0.19765404959170452,-0.005639766,0.0026978755681543211,1.9558609999999998,0.14278927259426738,0.0019558609999999997,0.0040706537978166353
1272.118326,40.20824386288551,1.272118326,0.0057490364695072177,2705.152784,85.502166983452028,2.705152784,0.010982496894665805,2271.8316109999996,71.806521978351697,-2.2718316110000001,0.012130563447329186,124.32411499999999,3.9296303650272244,0.12432411499999999,0.00082958689706082004,955.710521,30.20716351054427,-0.95571052099999998,0.0016909286104265311,266.678458,8.4312066734821531,0.26667845799999995,0.0063194175165307755,18512.55025,585.14958228508112,18.51255025,0.16807500241498582,28622.789784,904.695495688954,-28.622789784000002,0.1958151701266562,31072.031602,982.15252463927163,31.072031601999999,0.32041825152408782,7.55627606331621,0.71675598907996574,-0.0010309529999999998,0.022656187560019692,0.8961500629681509,0.17476752814810881,-0.00023600000000000004,0.0055228877279915808,0.8476023615161186,0.17443478336616236,0.00029430199999999998,0.0055083108464207067,0.8937089999999999,0.085849908584692144,0.00089370900000000002,0.0025636253541262617,5.7232590000000005,0.19275167472943006,-0.0057232590000000005,0.0021007420188873739,1.7862759999999998,0.11141858023238313,0.0017862760000000001,0.0030381379813668764
1269.498075,40.125269953298606,1.269498075,0.0067103595599174127,2717.546053,85.8947529724758,2.717546053,0.012666144400495006,2284.015728,72.1925354814543,-2.284015728,0.014019439795156439,122.019718,3.8568704765471447,0.122019718,0.0012819192979575587,954.930542,30.182439423438652,-0.95493054200000005,0.0019906183788551733,270.48041800000004,8.5524808192892792,0.270480418,0.0073221327347485305,18403.891836000003,581.71690222723169,18.403891836,0.16087186804815523,28706.609413000002,907.3617479025221,-28.706609413000002,0.17390844896010771,31152.836902000003,984.71583042724819,31.152836902000001,0.34748841815111248,7.9568497788769275,0.65722745463956378,0.00086868399999999978,0.020784383246470028,1.20263742739957,0.18556137272880904,0.00038597499999999999,0.0058582763048848248,1.1943751393176532,0.21382611606864113,3.2133999999999886e-05,0.0067617964275807655,0.589094,0.10673125214762544,0.00058909399999999997,0.0033580971583865764,5.548475999999999,0.19010167626825389,-0.0055484759999999992,0.0023157522823963705,1.88526,0.12226908329172996,0.0018852600000000001,0.003385523117983394
1259.4537289999998,39.789460609277555,1.2581955334665333,0.012950945122482887,2745.099298,86.7238137629829,2.742356941058941,0.020825705444240589,2310.57094,72.998113873853214,-2.3082626773226771,0.024259005980163943,119.404118,3.7727723885178919,0.11928483316683317,0.0022293483951307362,952.408633,30.087895215292015,-0.95145717582417588,0.004001996488898733,283.64048299999996,8.9713284968990497,0.28335712587412587,0.013715291120993614,18324.416835999997,578.90800551726022,18.306110725274728,0.16862207683808852,28466.007159,899.31780489664936,-28.43756958941059,0.30427204333593061,31632.743701,999.43612052253093,31.601142558441559,0.46365902458480823,13.89026721563658,1.4324323050179371,0.00079880219780219762,0.045314759841219153,2.4226830405626347,0.48497531706881747,-0.00049206593406593395,0.01532158123843627,2.3573483609106294,0.49653343855071824,-0.0001715184815184817,0.015696140304274062,1.081613041164686,0.23120968420245719,0.0004976613386613386,0.0072911867816911873,5.286474,0.22019039111187391,-0.005281192807192807,0.0045390856981129364,2.098941,0.25920508252154312,0.0020968441558441558,0.0079218037431599605
1261.7134629999998,39.8798068126723,1.261713463,0.0073537416351562813,2726.2240659999998,86.167940102338946,2.7262240660000003,0.011976716418937362,2291.8156520000002,72.437849786147794,-2.2918156519999999,0.013095439610982758,122.671905,3.8778314567442203,0.122671905,0.001907403519440761,952.5871859999999,30.108529868602883,-0.95258718599999992,0.0022329258942929567,278.319886,8.7999342970590426,0.27831988600000002,0.0076593614733216501,18455.420005,583.3450612776835,18.455420005000001,0.18607879162477639,28506.963445,901.05277243293847,-28.506963445,0.22805214232523874,31350.029883999996,990.93071137534184,31.350029883999994,0.3546424268261435,7.497020568411425,0.79427842792877101,-0.0010084930000000001,0.02512569312050816,2.4327301516026933,0.37943769799665394,0.00048715999999999994,0.011990664194297162,3.2172210724768906,0.4054261021641305,-1.9128000000000133e-05,0.012822583628879791,1.4049070731120672,0.19920676261362211,0.00086469999999999982,0.0062399801401927558,5.463266000000001,0.20883097128539146,-0.0054632660000000005,0.0037119908358243556,2.0035169999999995,0.18347374165531152,0.0020035169999999994,0.0054467395700282016
1263.429428,39.934295889886741,1.263429428,0.0087027073577603427,2715.7155119999998,85.836927047743487,2.7157155119999996,0.018978549527923778,2281.020611,72.097686935547827,-2.2810206109999998,0.017746273610301372,124.830328,3.9463792012751386,0.124830328,0.002445787602882965,953.097403,30.124680874013919,-0.95309740300000001,0.002614827819301111,275.525668,8.713763551221998,0.275525668,0.0097723027165441401,18506.064955,584.94859734042939,18.506064955000003,0.18232349370207054,28376.594928,896.92568779354235,-28.376594928000003,0.24532861925844451,31235.40638,987.34689035160875,31.235406380000001,0.42592559710540706,8.137467453142351,0.71002517883452554,0.001340234,0.022416228943630195,1.98690417867436,0.33608128686970951,0.0002780259999999999,0.010624322233786209,1.9893159163398089,0.28931971453393907,-0.00016119900000000003,0.0091486380029706608,0.8581184770984042,0.15328521393793987,0.00075187399999999992,0.0047888270797893711,5.7582830000000005,0.20553115556771437,-0.0057582829999999995,0.0030224102145326006,1.195639,0.14403747500216738,0.0011956389999999999,0.0043951464529272512
1257.261438,39.739188170849431,1.257261438,0.0079377420814836282,2735.487721,86.4617789859238,2.7354877210000001,0.015983226404676837,2298.303356,72.644182569408045,-2.2983033560000004,0.016697939451958247,121.73048800000001,3.8485369746855755,0.12173048800000001,0.0028209676474316397,951.2193070000001,30.06530849745813,-0.95121930700000012,0.0024644741055143988,283.33058800000003,8.9591273688316324,0.28333058800000005,0.0085580460366987965,18330.969729,579.41511919750701,18.330969728999996,0.17905203780874304,28245.139758000005,892.77362618734628,-28.245139758000001,0.21674190650201325,31690.677969,1001.7337404713437,31.690677968999999,0.39856069539410682,11.84028485663439,0.87714665065312769,-0.0017907729999999998,0.027686678007003137,2.2171742726664254,0.31649662149539604,1.4394000000000045e-05,0.010008619177227396,2.838572670543953,0.40006577256121273,0.000234935,0.012650006659949828,1.4485996876866842,0.19630492215937936,0.00070573299999999995,0.0061674600734590085,5.519013,0.20499789168428048,-0.0055190130000000006,0.0034050261298308711,1.908262,0.18015091993381549,0.0019082620000000002,0.0053700338975984129
1259.954953,39.823564667076226,1.2599549529999998,0.0057311551208103764,2733.8260530000002,86.408907885307173,2.7338260529999996,0.012489685345283563,2298.345278,72.645160357354911,-2.2983452779999998,0.013556385073931624,121.224935,3.8320595032466547,0.12122493500000001,0.0018697545466651497,952.060941,30.091744398786311,-0.95206094099999994,0.0017455966548773495,280.779578,8.877064100516284,0.28077957800000003,0.0063869155292610533,18374.801851,580.80652679282309,18.374801851000001,0.17899553956582498,28455.212587,899.41009502467307,-28.455212587000002,0.20559568582278284,31496.873876,995.5984618378418,31.496873875999999,0.41184739123182101,8.000946407942415,0.73480515793508139,-0.0012172979999999999,0.023220498292310526,1.6351785184664345,0.29231259057043707,-0.00039643800000000004,0.0092700285271489855,2.1175383264087837,0.33609261928373252,-0.00054447399999999987,0.010632843886812408,0.9403599838229171,0.15800936978862992,0.00064683199999999996,0.0049615700532972427,5.570265000000001,0.20548685453332535,-0.0055702649999999996,0.00336341778802084,1.848921,0.16943102804976423,0.0018489209999999999,0.0050315723215272378
1257.6058449999998,39.729502624256796,1.2563494955044954,0.0075986737981531393,2734.686092,86.394527251643083,2.7319541378621377,0.017200208155089186,2298.974634,72.630333303897075,-2.2966779560439563,0.017458730920393815,123.204969,3.893701670941677,0.1230818871128871,0.0034808677966314855,951.891081,30.071312023373313,-0.9509401408591408,0.0023381959799593697,283.970223,8.9752578484258585,0.28368653646353648,0.0082484380698606644,18385.200186000002,580.85364550622012,18.366833352647355,0.21149933610036606,28325.384822999997,894.84619828039399,-28.297087735264736,0.23791869302562146,31532.374384,996.2352609356376,31.500873510489512,0.38899381812057132,7.86427931789786,0.83053703908796261,0.0022276493506493502,0.026173078220919369,3.3270200555492284,0.47139817123531574,-0.00027230869130869125,0.014897791225755855,2.823829509351412,0.44156974592809234,0.00019347752247752268,0.013955958351050205,1.408677452069776,0.25305121576669026,0.00098231568431568429,0.007941002266543342,5.878843,0.211448878507312,-0.0058729700299700299,0.0031989158692223426,1.7055749999999998,0.18232648432413762,0.0017038711288711286,0.0055084234083746407
1254.4165619999999,39.648926067625986,1.2544165620000001,0.0064960762800444372,2747.093237,86.828513496135287,2.7470932370000001,0.012626111192716108,2312.1123639999996,73.080209208091574,-2.3121123639999999,0.012754649524291286,119.505988,3.7775902097662737,0.11950598800000001,0.0019516172447116775,950.347936,30.037708241392654,-0.95034793599999989,0.002017349841724038,287.227208,9.0810725936404655,0.28722720800000001,0.0070536984007494967,18377.780155,580.89391431876857,18.377780155,0.1797904716916526,28451.667189999996,899.29213110278477,-28.451667189999998,0.1900545999681825,31880.636420000003,1007.706958935363,31.880636420000002,0.34510988204384069,8.126921145171835,0.77377745128492847,-0.0010126759999999997,0.02447783238779578,1.9319427830429576,0.2845223651191589,0.00022587800000000002,0.0090047083696872723,2.0561881187327615,0.29353965824910266,0.00020455699999999993,0.0092968117052434161,1.4690966043625735,0.16574509577360047,0.00073380599999999993,0.0052036802892149311,5.442605,0.20071261285479794,-0.0054426050000000005,0.003266160784923945,1.879826,0.17683830183814817,0.001879826,0.0052678723347974179
1250.8412680000001,39.535345931286855,1.2508412679999998,0.0046691824260973128,2751.541554,86.96869361204449,2.7515415540000006,0.0077520211646437106,2314.480013,73.15456222115408,-2.3144800130000003,0.0081405747860228451,119.571627,3.7797544842582043,0.119571627,0.0019767890741986104,949.239217,30.002533964383659,-0.94923921700000002,0.0014673818936837822,290.894901,9.1957291025770775,0.29089490099999998,0.0046531854129401506,18280.838722,577.83241301161979,18.280838722000002,0.18198100040833581,28375.686838,896.89081826352822,-28.375686837999996,0.17931460366445279,32073.569094000002,1013.8197075473292,32.073569094,0.336834834745249,3.8292126969369313,0.54899884525470533,0.0011112420000000001,0.017331092550368427,1.2914684288923883,0.22696643934731847,0.00011170299999999986,0.0071765946040438285,2.3179881712612995,0.28580062742408385,-0.00016331700000000025,0.0090367609813755169,1.3038554957526935,0.16450868609894126,0.00071075700000000001,0.00515345296378564,5.6316239999999995,0.19913849420441038,-0.005631624,0.0028237646007810212,1.8857499999999998,0.15964352661163556,0.0018857500000000001,0.0046831847761432607
1251.952863,39.570992158065508,1.2519528630000001,0.0052456200848165699,2736.807468,86.502076834434192,2.7368074679999999,0.0071805387365417089,2300.5593,72.713758560824004,-2.3005592999999998,0.0080841728609672876,123.41468800000001,3.9008550171849508,0.12341468799999999,0.00068740932831610568,949.5855099999999,30.013626302336892,-0.94958551000000002,0.0016406307231976369,288.13811699999997,9.1085416721140398,0.28813811700000003,0.0054221355738593435,18406.187428999998,581.78510072083736,18.406187428999999,0.17089862495096025,28402.799751000002,897.76043907245946,-28.402799751,0.21217184929610952,31950.345506000005,1009.8879749864938,31.950345505999998,0.32953016341154556,5.415999323422891,0.58237657569909174,-0.00077993899999999968,0.018414291166788881,1.3540204889766663,0.20338346286510117,3.5138999999999976e-05,0.0064316048894252666,1.0116477294006838,0.20988640427860017,0.00017308499999999999,0.0066407192366320532,0.832158,0.11397834178913113,0.00083215799999999994,0.0035077070888311071,5.645318,0.19365447571899802,-0.0056453179999999999,0.0023773442032814685,1.687243,0.12567777622157386,0.0016872429999999999,0.0035996369983584461
1247.847743,39.441045301918919,1.2478477430000001,0.0061684064615548,2741.337939,86.64667929290556,2.7413379390000001,0.014872600615470015,2305.176301,72.861152560080825,-2.3051763009999995,0.014615414033286875,123.591571,3.9077672101230649,0.12359157099999998,0.003290794196080788,948.285733,29.972458415119235,-0.94828573300000008,0.0019585881735860147,292.265063,9.2401899541667962,0.29226506299999999,0.0067659597447096145,18269.375030999996,577.47348398835288,18.269375030999999,0.18633729598673485,28347.241477999996,895.99657572482943,-28.347241478000004,0.21595884718498928,32108.785461,1014.9360208726468,32.108785460999997,0.35694215878228563,6.475257977453867,0.90769006530698571,0.0002599539999999999,0.028756109221796399,3.0062084889686496,0.40235933094436865,-0.000399672,0.01271751980106247,2.068569903406806,0.40458174751587594,-0.00024110200000000015,0.012800307145127261,1.4254422245171734,0.19847297845298736,0.00079594299999999991,0.0062327557088137989,5.493174,0.20459453057205607,-0.0054931740000000008,0.003431274143189961,1.9228669999999999,0.17944699989411911,0.0019228670000000002,0.0053441836165415389
