'attitude_pitch_fft','attitude_pitch_fft_stDev','attitude_pitch_mean','attitude_pitch_stDev','attitude_roll_fft','attitude_roll_fft_stDev','attitude_roll_mean','attitude_roll_stDev','attitude_yaw_fft','attitude_yaw_fft_stDev','attitude_yaw_mean','attitude_yaw_stDev','gravity_x_fft','gravity_x_fft_stDev','gravity_x_mean','gravity_x_stDev','gravity_y_fft','gravity_y_fft_stDev','gravity_y_mean','gravity_y_stDev','gravity_z_fft','gravity_z_fft_stDev','gravity_z_mean','gravity_z_stDev','magnetic_field_x_fft','magnetic_field_x_fft_stDev','magnetic_field_x_mean','magnetic_field_x_stDev','magnetic_field_y_fft','magnetic_field_y_fft_stDev','magnetic_field_y_mean','magnetic_field_y_stDev','magnetic_field_z_fft','magnetic_field_z_fft_stDev','magnetic_field_z_mean','magnetic_field_z_stDev','rotation_rate_x_fft','rotation_rate_x_fft_stDev','rotation_rate_x_mean','rotation_rate_x_stDev','rotation_rate_y_fft','rotation_rate_y_fft_stDev','rotation_rate_y_mean','rotation_rate_y_stDev','rotation_rate_z_fft','rotation_rate_z_fft_stDev','rotation_rate_z_mean','rotation_rate_z_stDev','user_acc_x_fft','user_acc_x_fft_stDev','user_acc_x_mean','user_acc_x_stDev','user_acc_y_fft','user_acc_y_fft_stDev','user_acc_y_mean','user_acc_y_stDev','user_acc_z_fft','user_acc_z_fft_stDev','user_acc_z_mean','user_acc_z_stDev'
1292.674423,40.844703964607689,1.2900942345309381,0.049547824043513662,1297.784415,41.524925827450488,-1.295194026946108,0.21114720915490326,1547.7586792657735,80.428903188890956,-0.13065265968063869,2.5380970916831136,260.805027,8.3732671444992146,-0.26028445808383233,0.047536365081004152,961.6022959999997,30.365642150611588,-0.95968293013972061,0.013913153765329927,75.95222100000001,2.9692043053944603,-0.07580061976047904,0.055332261917567585,22473.38678,787.62842964021138,-22.428529720558885,10.777679250830099,39116.386429000006,1239.9001625944506,-39.038309809381246,3.5089843261428637,6952.867351707145,377.72437494197868,4.8023502854291413,10.9346634176813,90.15094719140882,15.624832672583477,0.063299323353293413,0.48959301273805916,335.58659119349556,37.554084095234025,0.17095251596806388,1.1747490162460763,154.88172277428868,15.870160902599952,0.031368786427145703,0.50038208408978457,93.95646699755487,8.2094493942335749,0.078302857285429142,0.24735035266055311,200.89829073070965,11.877006724745174,-0.03475710578842315,0.37364711797978528,120.62429968565192,10.136232840855721,0.0097369451097804403,0.32010150447239233
1306.179926,41.296764273641401,1.306179926,0.031527700602177189,1184.773213,37.70532132225091,-1.1847732129999999,0.14137554147624556,2722.466738,86.169155977373933,-2.7224667380000001,0.13854392345210004,239.70097600000003,7.6381743978234757,-0.23970097600000004,0.030940568197391331,964.713266,30.492849723751029,-0.96471326599999996,0.008251728616795637,97.68360100000001,3.2930854550020419,-0.097683600999999995,0.036114611544190794,29858.487631,944.38776133390945,-29.858487630999999,1.140557899033612,37615.719705999996,1189.3720635541606,-37.615719706,1.043141691701553,5721.845120999999,204.20754939443353,-5.7218451210000003,2.9988092753459394,113.19635097186269,14.577645152299734,-0.010841649,0.46114857952552535,369.5968323455055,32.36196587932865,-0.0192459,1.0248699258931966,135.10210437267062,14.637892901535006,-0.0011941360000000012,0.46291011247842867,64.46536616289201,7.2756432422963808,0.059712773999999996,0.22219336196143874,175.19467104533163,10.381394873388594,-0.016504672000000005,0.3282268660225004,122.07877278101284,9.6000578282288469,0.053403012,0.29884954641475009
1270.2578629999998,40.165416327510663,1.2689888741258739,0.05464555101344095,1199.284647,38.972782715406638,-1.1980865604395603,0.28823787977096582,2689.7065140000004,85.684320546233891,-2.687019494505495,0.35072666862201896,266.746589,8.6362699689410451,-0.26648010889110885,0.059636480012295108,954.3302299999998,30.152654096083179,-0.95337685314685316,0.016451720139057761,99.304554,4.028931636388859,-0.099205348651348668,0.079950328836461096,29244.575618,929.00723894082375,-29.215360257742258,3.0912712204854271,37296.878285,1179.3299890481292,-37.259618666333665,1.5780827741575654,7145.598694,245.59613673777105,-7.1384602337662342,3.0528385445124946,110.04264782476147,16.523686914394194,0.006737192807192806,0.52246160550859544,348.47771599147285,32.885905316685417,-0.0051493726273726271,1.040021239627501,141.9941222819934,13.34782810722044,0.0054796003996004016,0.42186511820176453,79.058709,7.3025003163626074,0.078979729270729285,0.21695412289685964,206.66034031880776,11.226948607148252,-0.028468389610389607,0.35372453667082959,139.16554271177432,10.223337034949305,0.017507283716283718,0.32280379783919833
1250.60939,39.549151738638955,1.2506093900000002,0.041836280249227462,1707.790918,54.089963702623898,-1.7077909179999999,0.11342726125270448,2239.001648,70.864467567322393,-2.2390016480000003,0.11460485864686583,309.76988400000005,9.8784773940771373,-0.30976988399999994,0.04122362937879856,948.347136,29.977052270287803,-0.94834713599999998,0.013387836821738752,41.112421999999995,1.6709299340172825,0.041112421999999996,0.033338565250621024,29649.347232,938.65739755153766,-29.649347232,1.7409378608168151,37817.493998,1196.0712225895338,-37.817493997999996,1.391048953358764,5700.903682,207.76532100056559,-5.7009036819999999,3.2659248978781728,111.9446393882727,17.083201542392281,-0.0048830199999999992,0.54041651227416576,358.54933994223717,37.340566427200308,-0.026805956000000009,1.1806946017587334,155.42307791831675,15.542486092756652,0.0034840620000000017,0.49213010140701424,134.130581,8.257187142325586,0.134130581,0.22431332368168735,208.13876917578267,11.569106249249463,-0.040674920999999996,0.36399062947992322,146.56865855890632,11.279953020192192,-0.110128727,0.33939070055280901
1241.948658,39.273966579879449,1.2419486580000001,0.04110953260818026,1644.182351,52.097453428340287,-1.6441823510000002,0.1197990087880438,2225.673602,70.447528956011951,-2.2256736019999996,0.12191941172000297,319.716096,10.187171685492102,-0.31971609600000001,0.040328233788684373,945.6169209999999,29.890607357766584,-0.94561692099999994,0.013560896467813584,21.698983,1.3315976114299695,0.021698982999999998,0.036182513313211276,29832.355198999998,944.77128980027669,-29.832355198999998,1.8575098819933609,36485.775865,1154.2116168897817,-36.485775864999994,1.5879205347275527,8667.816229,296.08885248695555,-8.6678162289999996,3.5409960043700548,115.98335640144715,16.087674756781446,0.0068074580000000049,0.50869143272487127,373.1849310495678,34.192825107172375,0.018796484000000006,1.0811286891498864,156.25090472067816,15.127648579581193,0.0028854789999999985,0.47853258484521777,140.53849200000002,8.342311267096548,0.14053849199999999,0.22327128746614047,168.6680586673895,11.03878297036956,-0.035820559000000002,0.34723570030996598,121.6263751861141,10.308295565847827,-0.097956740000000014,0.31188826551621723
1258.850684,39.787916294144559,1.2575930909090909,0.040399837889195225,1621.84306,51.357545121775047,-1.6202228371628371,0.11324063247907175,2310.020206,73.050220752417033,-2.3077124935064934,0.10307659716380503,305.970225,9.7467892305274564,-0.30566456043956047,0.039323771015274359,951.5271140000001,30.062196174324864,-0.95057653746253745,0.012729984514723496,14.073607515860363,1.1244847773215967,0.013432193806193806,0.032933156233056843,29104.324081,920.48106668623871,-29.07524883216783,1.4084973895311577,37523.436777,1186.3769027517787,-37.48595082617382,1.5482464920682539,6605.672632,225.24352025087677,-6.5990735584415585,2.6739860398166044,92.6792672241363,15.092273034724393,-0.0044233706293706279,0.47702647119488539,333.65362162594255,33.146207858047326,0.008791793206793205,1.0482305553333033,150.29466478388537,15.509231440620169,0.0080736493506493503,0.49067063192613347,121.13519199999999,8.2967180729932011,0.12101417782217781,0.23267606594738444,190.57339064939478,11.9310800389637,-0.027974071928071928,0.37610838939729835,124.84820265076607,10.675963631074106,-0.093768902097902104,0.32416880482112281
1291.10248,40.846366058205234,1.2911024799999999,0.055506008703487229,1495.245066,47.625427848882012,-1.4952450659999998,0.1856791661473404,2331.182772,78.279654802891386,-2.331182772,0.83626883865074031,270.845914,8.7331666022575103,-0.27084591400000002,0.054767297031482247,959.6572630000001,30.335658064182649,-0.95965726300000009,0.014819260004461456,19.118805177006852,1.5746759337520846,-0.018249825000000001,0.046349303377811145,27273.250175,865.8857139182893,-27.273250175000001,2.5861879951305657,37898.42302,1199.6816230728596,-37.898423020000003,2.0782409157946704,7575.9508749999995,299.82051554930513,-7.5759508749999993,5.7104257885846614,94.76846879867314,19.34028790873468,0.016758253000000004,0.61139692797137357,368.79916209745465,41.356776597483915,0.013609184999999996,1.3077460123857112,185.1101363396975,19.302439430095433,0.00024907400000000467,0.61070579452817253,106.845837,8.7642729068530247,0.106845837,0.25588308458727088,139.96272155217852,12.06757399155004,-0.024857513000000001,0.38091991783273005,127.10368932397992,11.899233881746968,-0.094337627999999993,0.36436886331706447
1285.503991,40.651386845816823,1.2855039910000001,0.040888916568978924,1516.8109650000001,48.217077224758626,-1.5168109649999999,0.162283341035837,2336.135577,74.043177887303429,-2.3361355769999999,0.17321403812054054,277.009035,8.8388471977964969,-0.27700903500000001,0.03832334227777863,958.777761,30.306227658958132,-0.95877776100000001,0.01159331944793548,23.1935481548343,1.5515675121379666,-0.016745982000000003,0.046127054052493704,28230.073509,893.9845615068931,-28.230073509,1.7227202495147853,38231.612053000004,1209.164877525385,-38.231612053000006,1.3968325033907087,8787.626511999999,296.66461345219562,-8.787626512000001,3.3056813076604978,103.51657693466586,14.747891001490448,0.0050336849999999978,0.46647471159612475,378.9048630130864,37.297836647746891,-0.037762116000000005,1.1812308935193723,193.67018814781662,16.074275402185226,0.0022922599999999969,0.50840392500246345,104.47390899999999,7.9667977842444948,0.104473909,0.22928098664259694,135.22549784348115,10.723345182887426,-0.023298660999999995,0.33856356176329144,114.6956411532349,10.986790737388056,-0.075557837000000003,0.33911876914822398
1346.9962259999998,42.594894628281146,1.3456505754245753,0.059114954499881266,836.4353120000001,30.751838413861297,-0.83559971228771235,0.49940891634394086,1037.875689447653,87.686942831790134,0.60485188411588398,2.7057278055974181,152.501369,5.6468888715779606,-0.15234901998001998,0.093288396744110214,974.038196,30.774523901335826,-0.97306513086913082,0.014489518375677539,118.34640099999999,4.5870812038081459,-0.11822817282717281,0.083925238278940412,28900.955299000005,914.82841091586567,-28.872083215784215,1.8517738745048453,39313.485049,1243.0986102317586,-39.274210838161835,1.6652987927748351,6753.745481000001,232.44405472268815,-6.7469984825174825,2.9086110942802379,79.1488407651172,14.773444250022301,-0.0014590009990009967,0.46695742261848727,307.68881908019125,36.224218683623583,0.01117016483516484,1.1448942357188281,183.61597333808663,15.031626905228789,-0.00085518881118881187,0.4751537138454357,95.81907108623903,7.7329619441425548,-0.010168366633366635,0.24430095574787081,180.14906121454587,11.024806945413738,-0.0068636693306693281,0.34842224801710964,139.72944963954006,10.583382398038253,0.029386810189810191,0.33321555012274912
1360.079199,43.002508224937237,1.3600791990000001,0.034233340767406834,316.758701,11.697835327185835,-0.31675870100000003,0.19121204480504253,2518.169288,87.225605789450469,2.5181692880000002,1.128767750452996,63.872195,2.3596659888452431,-0.063872194999999993,0.038621447368773931,977.3076470000001,30.890685785676823,-0.97730764699999995,0.0069163418935439423,195.181535,6.2607908724967816,-0.19518153499999999,0.033982593622894276,26545.806064999997,841.1274946716967,-26.545806065000001,1.8859208394631983,41332.480043999996,1306.9127734837434,-41.332480043999993,1.1723609672665907,9422.512143,320.85659442350817,-9.4225121430000005,3.7786501072524694,77.65136875164549,15.345798721053914,0.017257351000000001,0.48501237837866756,264.7312829694647,37.058247980757756,0.0075000350000000082,1.1719552716298229,165.70540163025362,17.012548258594975,0.0033802529999999997,0.53797687753634449,83.93432586904554,8.4045496464835026,-0.057066174000000004,0.25971205018887306,195.53259081276312,11.050102832587939,-0.013843424999999999,0.34919199859940431,147.17524828206942,11.030737425180059,0.080432819999999988,0.33983153364315621
1361.43563,43.043676608632957,1.3614356299999999,0.034232798806628412,343.117121,12.346035755310691,-0.34311712100000002,0.18633126392573618,2608.583731,87.604176363098631,2.6085837309999995,0.93637445394894059,68.978069,2.4688479480028733,-0.068978069000000003,0.03657928449707893,977.59107,30.899347665323802,-0.9775910699999999,0.0071827869640620689,192.35713099999998,6.1753642621554716,-0.19235713100000001,0.034159084028700749,27096.223391000003,859.44125104202965,-27.096223390999999,2.2464226114004937,40317.021019,1275.688172164161,-40.317021019000002,1.927394267380214,7679.162851,263.01767501386331,-7.6791628509999992,3.2096375858290034,104.9080757827215,13.360296206372146,0.0075612019999999995,0.42243257674146439,304.9479064713108,32.926518453069384,-0.026865355,1.0421574321717362,157.30720155172574,15.209559967440379,0.0067195269999999968,0.48092158484524405,87.33953797936282,7.7544038966482765,-0.060892425999999999,0.23753511801788915,142.25524769019046,10.60308624166167,-0.016057521000000002,0.33505336225387378,107.69535407285295,10.649224966938721,0.080740888999999996,0.32706082996332148
1329.012685,42.025654469614608,1.3290126849999999,0.042475650361751674,351.142516,12.034759951390223,-0.35114251600000002,0.14723420938597032,2619.4950639999997,87.303110442590622,2.6194950639999997,0.87604566689483254,82.378467,2.8479875633833092,-0.082378466999999997,0.036460932756649425,970.0361750000001,30.661110263075621,-0.97003617499999995,0.010001727612086574,222.02841999999998,7.1263796318303161,-0.22202841999999998,0.038955836150307441,27405.268523,867.62524359318343,-27.405268523,1.566042907354094,41215.632895,1303.3335892947312,-41.215632895000006,1.2954932202441889,7588.576437999999,259.36957230628218,-7.5885764379999987,3.1140534937071807,130.69105885086626,16.245718748083295,0.0050854009999999963,0.51437071664412837,348.0797116886579,37.499779729438124,0.018190962999999997,1.1873686731164537,183.9367295238601,17.446748195883721,0.015312319000000001,0.55156354897242377,91.20810475011052,8.1009827865026338,-0.062831096999999989,0.2483790986293283,157.0824981633641,11.524117956091475,-0.0097654250000000012,0.36446668428074519,126.04861851489008,11.433982144894445,0.098220052000000002,0.34811577759580403
1400.0747090000002,44.248974163764338,1.3986760329670329,0.038490624647674193,327.40299000000005,12.174011235381588,-0.32707591408591413,0.20291318342611081,2323.584074,87.052687825319936,2.3212628111888112,1.4801134573206858,53.794158,1.9814098356115029,-0.053740417582417585,0.032238373503842857,985.478647,31.133579481716939,-0.9844941528471528,0.006612365159201038,159.228782,5.1743821081981372,-0.1590697122877123,0.038691178055776425,28261.855617000005,894.36788940672818,-28.233621995004995,1.6338845767451673,41688.789283,1317.486153976811,-41.647142140859138,1.1216607912879912,6372.388523999999,221.96087474148976,-6.3660225014985015,2.9713912985330975,137.65344651100415,16.274024337990006,0.00867895904095904,0.51435168917860707,340.6444115335684,31.446020686498052,-0.014218962037962033,0.99381225478339263,161.69678296938693,14.163858999081643,0.01517084115884116,0.44747070877467549,114.10749799999999,8.0838716535652644,-0.11399350449550451,0.22878146577951197,171.34375539062046,10.39754770215213,-0.0065919560439560449,0.32873252692848526,137.04911703303642,10.210620339489765,0.066668343656343651,0.31607324381023311
1411.5616330000003,44.629754239056112,1.411561633,0.035597510900627745,175.600177,9.4146735977432048,-0.175600177,0.24148166179804975,2250.050383,85.761258204723305,2.2500503829999996,1.5169805773728418,27.240834,1.3727174192899281,-0.027240833999999998,0.033982599341169359,986.723439,31.187886830479634,-0.98672343900000004,0.0056627136210724112,152.03670699999998,4.9428067204150299,-0.15203670699999997,0.036506491671169268,27185.017311,860.26913566683947,-27.185017311000003,1.3916429315377044,41942.091125,1326.1837763620831,-41.942091124999997,1.0953170644036028,8561.333341,283.70748133396336,-8.5613333409999992,2.6940272930130935,125.77788908595524,15.388774348813161,0.0077675410000000019,0.48677866501093936,312.72469426512686,33.228667434225734,-0.0032494679999999967,1.0526939037516114,166.70882038746925,15.337330820805553,-0.001417211,0.48530062714140243,119.042219,8.4003365509105041,-0.11904221899999999,0.23767645836431306,147.4003303298165,10.789622211828595,0.00093176200000000134,0.34119760989158371,114.61920803497016,10.112321032561514,0.056162205999999999,0.31510788450198379
1446.3865110000002,45.743323753625177,1.4463865109999998,0.050844416269044526,598.005675,27.099394222029868,-0.59800567500000013,0.61393640061076471,1141.522488571592,83.903340986152401,0.40686023399999999,2.6235817632017975,53.999371000000004,2.2741218244907193,-0.053999370999999997,0.047508873136808447,990.9895069999999,31.322740615354586,-0.99098950699999999,0.0066475742723155033,92.60535,3.5657083545775308,-0.092605349999999989,0.064395779492273403,27720.02983,877.99917609286615,-27.720029829999998,1.7987444611209045,42201.126924000004,1334.4039638160427,-42.201126923999993,1.2047956006314096,6482.324264,226.82031947616696,-6.4823242640000007,3.0805520110931979,130.10031083894967,16.847805365089393,0.0035015940000000015,0.53320253289122621,353.49434978925746,37.163419082785865,-0.020068658999999989,1.1750892818699006,166.37279886170063,16.106491844427637,-0.0033796299999999972,0.50947337426549888,103.48138800000001,8.2335018262044475,-0.10348138799999999,0.23895531176226542,121.62476669257975,10.270334774876959,0.0017689599999999991,0.32503758942143046,121.45566316542289,10.78259413257422,0.009445346999999998,0.34102047492395909
1428.1699549999998,45.134369837185602,1.426743211788212,0.043522617308104909,435.61159799999996,18.522280082899705,-0.43517642157842151,0.39212301279540629,1507.435376,72.911644846270619,1.5059294465534465,1.7454067047064203,58.11553500000001,2.3742687144459875,-0.058057477522477523,0.047549379743733043,989.694807,31.265992263261317,-0.98870610089910083,0.0066835503168578914,121.63412700000002,4.0988509481697433,-0.12151261438561439,0.044929393150656582,25979.65598,825.11514303598426,-25.953702277722279,2.6647832305475725,43656.929259,1379.9649151233289,-43.613315943056939,1.4868436442443353,3745.125066,239.2659536189831,3.7413836823176823,6.5749121009273983,98.66717328460084,16.809783982622804,-0.017709949050949053,0.53153091308861389,314.78680717587093,38.173523184549296,-0.070973253746253753,1.2061029674197734,163.3020926685337,17.251006648462432,-0.00084483416583416631,0.54537908819994252,102.74013400000001,8.1927445419420977,-0.10263749650349652,0.23778565887623465,120.77786008928625,11.435121647751981,0.012675224775224776,0.3612738865248078,100.55687349717331,11.200658401154017,0.0069997332667332659,0.3544509699705824
1364.252188,43.162576373114682,1.364252188,0.061185184730412123,873.2477880000001,32.061305969791562,-0.87324778800000002,0.51513785887645169,1320.3003494988327,81.947131055111157,-1.124351283,2.335441404564659,154.020649,5.7453829205312319,-0.15402064899999998,0.09636965880649262,976.9102720000001,30.879160628385208,-0.97691027199999991,0.011616561355496555,101.941056,3.531009256210043,-0.101941056,0.045934058188830472,27607.463359999998,877.34403640749986,-27.607463360000001,2.8541406964903837,42785.948229,1353.385210769027,-42.785948228999992,1.7713860730518749,3008.0678290890046,177.81271902123328,0.36200953400000024,5.6125980946632898,107.40487058177457,16.928392827325574,0.0093718359999999997,0.53566326860737534,326.56679592610845,35.710551209733083,0.031008942000000001,1.128898590897444,179.20574950477163,14.569132182343118,0.024091426000000003,0.46011074722768269,75.73478419351403,7.7261989049069255,0.013808382999999999,0.24405924614950836,150.59215096570253,9.2913479069077471,-0.016076011999999997,0.29337931163458658,136.1114252911595,10.064195559226329,0.012257271999999998,0.31805067663168085
1386.8288389999998,43.855310393240622,1.3868288389999999,0.040859992218734931,1232.960035,39.47012901925369,-1.2329600350000001,0.19715314952914084,1653.307879,75.905876348683691,1.653307879,1.7428036656154997,168.92408,5.4726549769833834,-0.16892408,0.038374377061466416,982.304846,31.04917926253643,-0.98230484600000001,0.0073663155334457381,60.319635999999996,2.2357433218627758,-0.060319636000000003,0.037102081658547191,15495.452288999999,548.08304135458422,-15.495452289000001,7.8217275932392134,44403.136531000004,1404.7443138106876,-44.403136530999994,1.8160806811353432,13363.923638,465.88185724320573,13.363923638000001,6.2012269279074621,103.10289226873698,15.512461163421392,-0.013716047,0.49062547100277498,332.88629524306026,31.390995495754364,-0.14421735900000004,0.98214534497861972,160.94913890574077,14.499412662756825,-0.010037773999999999,0.45853673880186191,80.18674488587354,7.1612537867958563,0.010270361,0.2262389757341309,173.0974733957406,9.9705167108098252,-0.0069043010000000024,0.31537547124858079,134.81122757783666,9.8775742163237616,-0.035623705999999998,0.31051375139788184
1419.7275929999998,44.869155401978759,1.4183092837162838,0.039428736826123668,1152.9219830000002,37.331242020051711,-1.1517702127872127,0.25906199632445143,1927.3479300000001,61.48806104908261,1.9254225074925073,0.27144066428104108,134.701611,4.439710507198865,-0.13456704395604396,0.04014666464143981,988.615952,31.232273212026527,-0.98762832367632369,0.0060719288616573764,59.450635,2.198644887497069,-0.059391243756243751,0.036138914895368801,10805.762308000001,357.92669520123945,-10.794967340659339,3.3968900849656842,45647.746642,1442.3257061000618,-45.602144497502493,0.89429458216467639,17096.746204,544.12372156355855,17.07966653746254,2.0778661865160974,114.52756075295596,16.990688387845712,0.0031723656343656368,0.5374284462733977,332.2832107894674,31.479660619239056,0.0099463726273726176,0.99526298725718509,152.92709186222177,14.700463283723375,0.0040241148851148864,0.46482331730661042,62.282718478972996,6.8930816493326139,-0.031187111888111886,0.21583371596387504,164.4630387121382,10.90623232088708,0.0042358981018981012,0.34476040742477365,115.90765139363455,9.9562772651357498,-0.022398093906093906,0.31389134582215089
1430.340217,45.225592371386981,1.4303402170000001,0.039017155049412701,1116.273815,36.535272885969803,-1.116273815,0.29872064969129064,1958.906586,62.734076764176578,1.9589065859999999,0.31759173492153192,120.892921,4.0357730741224787,-0.120892921,0.040993589988054954,989.3987630000001,31.272357513767961,-0.98939876300000007,0.0055123251414290683,58.474076000000004,2.1799497241175083,-0.058474076000000007,0.036672909543452155,11980.382894,395.38744558441255,-11.980382894,3.6112545766510165,46091.056705999996,1457.1824814613658,-46.091056706000003,1.1004741474806061,18153.431685000003,578.22140023308407,18.153431685000005,2.2282337419789116,155.7609677726383,18.267641998585667,0.0068614689999999976,0.57763332355212771,348.6528664872971,35.033219252390204,-0.038969579000000004,1.1071807370475841,182.65465037888464,16.991961088367553,0.0019042259999999995,0.53790387608238976,68.16013281486825,7.6619853785000132,-0.048581257000000003,0.23737603657205367,173.23141198505118,11.251109595002841,-0.00090513599999999834,0.35579854388152221,130.08928317817546,10.16292838871961,-0.01818225,0.32087811456063736
1428.8587830000001,45.173789502163494,1.4288587830000001,0.035152784774636438,1153.766036,37.443964162365219,-1.1537660359999999,0.2681994370801451,1932.5129929999998,61.800862038000538,1.9325129929999998,0.29569417092008243,125.381425,4.1266894639799343,-0.12538142499999999,0.036257263354979988,989.332095,31.269949026764753,-0.98933209499999997,0.004917539018856382,54.681411,2.0397848937402689,-0.054681410999999999,0.034244375104242726,11359.716402,372.32504046636416,-11.359716402,3.100454738452282,45218.006366,1432.1479687964859,-45.218006366000004,2.9247487663612635,17558.744253,560.98854846807569,17.558744253,2.60102045384239,107.8823454007661,17.212182239920683,-0.00063779099999999997,0.54447772159123775,291.4332807373282,31.755234653831245,0.0073533670000000004,1.004656146053142,148.37138540556876,14.742066327561377,0.0058431259999999962,0.46665777048421264,68.37487876419668,6.84755242448351,-0.053298790999999991,0.20987810247769376,134.01163249566395,11.030052308002622,0.0031957779999999998,0.34960830710266699,105.68672652280793,10.329315608458142,-0.025916995000000002,0.32568030290386146
1449.955217,45.819475944759169,1.4485067102897102,0.035439832568559017,1035.108281,33.767330761226091,-1.0340742067932067,0.26532114664224682,1870.427953,59.910355516002909,1.8685593936063936,0.3104929072253112,102.00823300000002,3.4212007221181868,-0.10190632667332668,0.036265961579350178,992.9005060000001,31.367165761625451,-0.99190859740259751,0.0042448322913363357,59.070192999999996,2.096736032220079,-0.059011181818181824,0.030280036982098812,11473.739485,379.38244655078682,-11.462277207792209,3.5352562981896161,47160.899233000004,1491.6899409992704,-47.113785447552452,2.4343469461847889,18085.596478,576.47055764612708,18.067528949050949,2.3820897863068433,114.94701601842777,16.219891683015643,0.0050558321678321663,0.51265253256515009,326.07879400303773,32.869532605571116,0.02600969130869131,1.0388421014602947,154.23117391773184,15.217913693837867,0.00096060739260738967,0.48111040866234589,64.32109200600748,7.4690787026258478,-0.05908549150849151,0.22857700184488328,187.5470432766647,11.260384638645034,0.0059594825174825181,0.35606865324446441,131.00338180959824,10.008897109133853,-0.019902483516483511,0.31584364529997688
1461.664833,46.214402312727884,1.4616648330000002,0.037469457070087246,748.0326830000001,28.928871370920184,-0.74803268300000003,0.52693040535792446,1621.211615,54.494874012259721,1.6212116150000002,0.58642022629821422,73.116282,2.640373284470209,-0.073116282000000005,0.040373119976742894,993.353205,31.397154289841531,-0.99335320500000002,0.0039666221860639814,69.836136,2.499431277372715,-0.069836136000000007,0.037156904810862597,11000.750444000001,364.9975409941631,-11.000750443999999,3.51599307769572,46137.667368999995,1458.6382612109383,-46.137667368999999,1.0691674325566949,17237.945139,547.73775170468571,17.237945139000001,1.7567219809401851,142.13353429686546,17.652311475142877,0.010069265000000001,0.55818958374178285,352.9159249438217,31.332565841122154,-0.0078965570000000002,0.9907925959173377,155.46140990279346,15.283488229959184,0.0086417639999999997,0.48323148458672915,80.21271655382267,7.5295480595606135,-0.066223794000000002,0.22882226963891333,163.40487308085764,11.701640525830168,-0.0068494680000000009,0.36997511733271599,116.27347684570829,10.286182982046205,-0.025490468999999998,0.32475516677536176
1442.2517079999998,45.600691500517691,1.4422517080000001,0.038128250143859677,759.001438,26.385653595344511,-0.75900143799999997,0.34857244732488274,1586.411927,51.870792401980395,1.5864119270000001,0.42253492312893814,83.02306200000001,2.8923157361745626,-0.083023062000000009,0.038520020182603178,991.028364,31.323666318176617,-0.99102836400000005,0.0046682211450941348,88.1078,3.0761063524805192,-0.0881078,0.041247753996308693,10827.947308,359.3045006943704,-10.827947307999999,3.4744301906393882,46938.78151100001,1484.4159813599751,-46.938781511000002,1.5452823492179195,16485.423650999997,524.03755080856195,16.485423651000001,1.7730033947181825,122.58289109056959,16.777016197450962,0.0005425889999999987,0.53055724828465978,344.2390968005464,31.855055995228323,-0.016967195000000004,1.0076030215704421,168.24384672386552,14.788668516640127,0.0017211029999999977,0.46766203220908409,79.32165973585982,7.233889945756709,-0.067343705000000004,0.21886637222890587,142.63914761468791,11.341270158653263,0.0084783710000000019,0.35856864783620074,111.80312848187783,9.9706826762983471,-0.01600714,0.31489409791048861
1447.8769129999998,45.749136405447778,1.4464304825174825,0.028395750685955196,650.058633,22.669927334973458,-0.64940922377622379,0.30368374587121305,1523.3782039999999,49.406224001618796,1.5218563476523477,0.35353388112410716,74.172241,2.6240390985955222,-0.074098142857142862,0.037359381913752189,992.8682239999999,31.366075765950523,-0.99187634765234767,0.0033879440479654974,92.809065,3.046914356391889,-0.09271634865134866,0.02621507950710348,11539.583348,376.31772312899744,-11.528055292707293,2.9494364338138985,45037.624962,1423.2142754694203,-44.992632329670329,1.1590587334238396,16290.740417,516.49778919929258,16.274465951048949,1.3928833986136187,107.01019813849588,15.164969449249314,0.00060803796203796141,0.47962001355630357,327.8735375212915,32.006924072370211,-0.0083279090909090803,1.0132857256154675,202.74810500351495,15.493039032289925,-0.0018631918081918094,0.48968730358867713,98.91881657827233,7.566097735447646,-0.073120941058941055,0.22775014041580766,189.69429471792043,12.241809848265003,-0.0029538301698301688,0.38691539247065165,133.69276934122837,10.704798396844614,-0.023334584415584416,0.33770758089908554
1462.733817,46.254956478752682,1.4627338169999999,0.046026442803018257,983.093137,36.904397239563849,-0.98309313700000001,0.62890738333751195,1829.7562769999997,61.645006982777417,1.8297562770000002,0.67321426185407884,81.684213,3.1518817405034407,-0.081684213000000006,0.05711880583560576,993.116223,31.389895639518567,-0.99311622300000002,0.0061094637814845098,41.761241999999996,1.9339310646077845,-0.041761242000000004,0.044765696795218496,9373.457506,306.86050864986731,-9.3734575059999994,2.5189593421490422,43970.143234999996,1390.1124227959956,-43.970143235000002,0.96750507092875404,16440.07903,522.41904288493834,16.44007903,1.7257028930300364,113.95694192115297,13.045868530491866,0.0024076129999999999,0.41288576280889272,245.6271535918006,26.808907816058671,0.012636576000000004,0.84767846951790882,144.22752242131617,13.432357096113472,0.0096770599999999995,0.42465937250092856,88.74079604688168,7.9521150272569621,-0.057069966000000007,0.24490641561029969,206.99729268665058,10.720541359972964,0.00093376999999999913,0.33916817491369544,137.29541848252418,9.0425115493696744,-0.041303917999999995,0.28304918487561359
1407.197395,44.509572847203728,1.4071973950000001,0.053573626208340379,1708.489889,54.648421345447545,-1.708489889,0.26450330094643182,2362.772091,81.628933143928791,2.3627720909999996,1.0426271900513859,156.749633,5.2536471330558561,-0.156749633,0.055297075530631012,985.2342659999999,31.141668964465886,-0.98523426599999997,0.0094647438752057094,20.610864,1.2631899685732149,0.020610864,0.034217569324858595,12886.443066,439.6364345550852,-12.886443066,5.2356873413488056,43427.159331999996,1373.2720784019996,-43.427159331999995,1.3402030681585608,18067.530872,580.58913658264885,18.067530872000003,3.2924569433619246,142.70031046412922,15.01765614925508,-0.0019712099999999984,0.47491526110615134,268.06376640875266,31.071436661931433,-0.014460766000000002,0.9839035240595041,90.08841746917174,12.902115782991718,-0.010331041999999999,0.40806367896970963,85.24679309665942,7.3472423165171961,-0.015836924999999998,0.23268437168096481,214.86348695983946,11.118831265837384,0.0014350840000000007,0.35183166306004487,144.29667363669765,10.090631929091158,-0.095539130999999999,0.30457676215852031
1413.686204,44.680963998340033,1.4122739300699301,0.045434957167145261,1899.753618,60.555332721103255,-1.8978557622377625,0.25626607112841493,2018.225597,89.383992736828205,2.0162093876123874,1.9810913378150634,145.605303,4.8324409580797774,-0.14545984315684315,0.046658336941432406,987.4304319999999,31.194757417051047,-0.98644398801198796,0.0077312595976910033,48.164891,1.88005906930926,0.04811677422577422,0.034895458790518495,12977.132262,425.83744938877624,-12.964168093906093,3.6277988912113801,44151.239357,1395.4028100541923,-44.107132224775221,1.2908933422409377,18380.248754,582.78134552227368,18.361886867132867,1.5771357375547548,124.17749154728016,16.52909539508488,0.0047949080919080884,0.52316940175182092,370.9896787332102,32.176257417881224,0.0071359310689310639,1.0170674429051825,166.12925495590775,16.035856827043073,0.0067328021978022021,0.50681534224713032,83.75251747613893,7.7511802696849994,-0.01565147852147852,0.24453486006897429,158.62376172591271,10.67347277110632,-0.0017811928071928048,0.33745771113614004,115.21249230366608,9.9049314356185238,-0.098173749250749245,0.29768764213359444
1444.13456,45.665548259286652,1.44413456,0.043570154940353378,1729.2250179999999,55.715462104915545,-1.7292250180000002,0.34230414347215499,2192.66048,81.988933789329849,2.1926604799999998,1.386351190093513,119.44862699999999,4.0551951911538113,-0.119448627,0.046821875871176616,991.048543,31.324573468412289,-0.991048543,0.005942056017251186,15.563146999999999,1.1517343310156209,0.015563147000000001,0.032939429665150413,8715.557587,295.40436759516882,-8.7155575869999993,3.3785756551437709,45758.104319,1446.6341995263845,-45.758104318999997,1.0453922605245196,17443.679054,553.51112930963961,17.443679054,1.5581342377654137,126.45034906918181,16.59975965496395,-0.0061277859999999979,0.52497817692672544,373.2888710766481,33.241619859986073,-0.010988386999999988,1.0527636182678348,185.93282461245735,15.898895948363394,0.013504556000000001,0.5026853501332269,101.76343703056952,7.7744183010935934,-0.033098451000000001,0.24361798041233243,147.99869378676942,11.424289867072263,-0.0033938839999999998,0.36133619942791306,103.39795124379003,10.264063411150136,-0.089266392,0.3120682052799329
